# Wavelength (A)     Intensity in channel 1     Intensity in channel 2     Intensity in channel 3
-134.245225     146.615000     101.692000     101.128000
-128.726225     147.795000     99.948700     94.282100
-123.207225     153.538000     104.077000     94.205100
-117.688225     160.667000     110.590000     96.974400
-112.169225     161.231000     110.128000     96.179500
-106.650225     163.795000     109.872000     94.769200
-101.131225     170.179000     113.769000     95.666700
-95.612225     174.821000     117.667000     96.743600
-90.093225     177.692000     119.410000     98.743600
-84.574225     186.590000     126.385000     104.128000
-79.055225     201.333000     135.949000     107.359000
-73.536225     218.103000     141.974000     105.795000
-68.017225     247.282000     158.179000     113.282000
-62.498225     288.487000     177.872000     125.615000
-56.979225     346.615000     204.641000     140.179000
-51.460225     441.897000     247.949000     159.641000
-45.941225     601.513000     322.949000     193.282000
-40.422225     868.667000     444.769000     248.256000
-34.903225     1373.050000     676.897000     358.795000
-29.384225     2415.920000     1131.360000     582.154000
-23.865225     4361.030000     2134.620000     1081.230000
-18.346225     7246.000000     4162.690000     2121.740000
-12.827225     10364.700000     7262.150000     4228.670000
-7.308225     12576.000000     10086.100000     6860.310000
-1.789225     13574.900000     11710.600000     9349.970000
3.729775     13449.800000     12193.300000     10917.200000
9.248775     12203.700000     11557.000000     11088.900000
14.767775     9551.280000     9613.410000     9646.280000
20.286775     6118.950000     6387.950000     6934.000000
25.805775     3209.740000     3332.590000     4031.490000
31.324775     1576.560000     1532.590000     2025.460000
36.843775     908.949000     821.615000     999.897000
42.362775     595.231000     495.615000     543.282000
47.881775     439.538000     345.077000     337.692000
53.400775     354.795000     268.154000     240.410000
58.919775     301.179000     219.308000     184.333000
64.438775     262.846000     188.487000     157.308000
69.957775     235.282000     170.897000     144.513000
75.476775     214.205000     155.128000     133.641000
80.995775     204.231000     146.179000     129.333000
86.514775     194.769000     137.538000     123.231000
92.033775     185.256000     130.487000     115.436000
97.552775     175.513000     125.974000     111.897000
103.071775     170.974000     122.513000     111.410000
108.590775     168.487000     119.410000     108.385000
114.109775     162.872000     113.615000     102.821000
119.628775     155.872000     109.256000     98.769200
125.147775     151.103000     106.923000     97.794900
130.666775     144.385000     105.564000     99.230800
136.185775     143.769000     106.359000     99.923100
141.704775     145.641000     106.744000     100.103000
147.223775     143.436000     103.718000     95.282100
152.742775     144.846000     104.205000     94.435900
158.261775     145.667000     105.000000     94.974400
163.780775     144.385000     103.128000     95.153800
169.299775     145.410000     103.333000     97.717900
174.818775     142.744000     100.462000     95.769200
180.337775     143.333000     101.641000     95.666700
185.856775     140.103000     101.282000     93.871800
191.375775     138.538000     98.820500     93.000000
196.894775     139.692000     96.743600     93.359000
202.413775     144.282000     97.794900     94.487200
207.932775     142.846000     98.435900     95.282100
213.451775     136.000000     98.923100     96.487200
218.970775     129.538000     97.205100     94.948700
224.489775     128.154000     95.666700     91.461500
230.008775     127.744000     93.948700     88.128200
235.527775     130.385000     93.025600     89.897400
241.046775     128.974000     91.717900     93.000000
246.565775     130.051000     92.205100     94.846200
252.084775     130.923000     90.564100     94.410300
257.603775     133.821000     93.461500     95.871800
263.122775     131.385000     93.794900     95.923100
268.641775     128.154000     93.974400     96.025600
274.160775     125.538000     92.974400     94.692300
279.679775     128.897000     93.769200     96.717900
285.198775     130.949000     93.128200     98.102600
290.717775     133.359000     94.359000     98.923100
296.236775     134.103000     93.794900     95.743600
301.755775     132.205000     94.974400     93.589700
307.274775     134.795000     94.153800     92.384600
312.793775     138.231000     93.871800     92.051300
318.312775     133.744000     91.512800     88.512800
323.831775     130.872000     90.076900     85.615400
329.350775     130.487000     91.820500     86.871800
334.869775     132.564000     94.974400     88.076900
340.388775     131.795000     92.487200     87.794900
345.907775     133.513000     92.743600     91.153800
351.426775     136.872000     92.384600     94.435900
356.945775     137.410000     90.820500     91.692300
362.464775     135.590000     91.461500     88.666700
367.983775     131.641000     88.666700     84.384600
373.502775     134.026000     89.820500     85.282100
379.021775     138.026000     92.641000     89.743600
384.540775     131.462000     89.000000     90.923100
390.059775     126.641000     89.128200     91.692300
395.578775     122.128000     88.000000     91.538500
401.097775     123.692000     87.435900     89.076900
406.616775     128.385000     88.000000     89.692300
412.135775     131.590000     88.410300     88.641000
417.654775     129.590000     87.820500     86.307700
423.173775     126.462000     86.846200     85.000000
428.692775     124.231000     86.948700     86.435900
434.211775     125.872000     89.589700     89.846200
439.730775     125.103000     86.794900     88.897400
445.249775     126.333000     85.461500     89.820500
450.768775     126.615000     86.512800     92.974400
456.287775     126.128000     89.897400     93.948700
461.806775     121.641000     88.333300     90.871800
467.325775     124.897000     89.384600     91.384600
472.844775     130.128000     90.461500     94.487200
478.363775     132.128000     89.333300     94.205100
483.882775     132.949000     88.871800     93.948700
489.401775     134.385000     90.384600     93.743600
494.920775     133.513000     89.923100     95.230800
500.439775     130.641000     88.307700     94.487200
505.958775     128.718000     86.435900     91.564100
511.477775     132.333000     88.846200     90.000000
516.996775     135.026000     91.205100     90.384600
522.515775     136.513000     93.564100     94.179500
528.034775     132.179000     91.641000     95.230800
533.553775     128.923000     88.256400     91.000000
539.072775     128.359000     88.333300     88.589700
544.591775     131.179000     89.974400     89.205100
550.110775     132.308000     90.435900     88.153800
555.629775     130.923000     90.717900     89.871800
561.148775     127.128000     90.307700     89.871800
566.667775     125.718000     89.641000     88.743600
572.186775     124.949000     91.410300     87.461500
577.705775     124.538000     92.564100     86.205100
583.224775     122.103000     90.128200     86.538500
588.743775     121.333000     87.948700     86.359000
594.262775     119.308000     85.359000     86.051300
599.781775     121.077000     83.615400     87.153800
605.300775     125.436000     86.794900     89.461500
610.819775     126.769000     87.871800     89.564100
616.338775     125.692000     86.538500     89.769200
621.857775     126.282000     87.743600     90.025600
627.376775     126.667000     88.230800     89.461500
632.895775     124.590000     87.076900     86.564100
638.414775     123.026000     85.871800     84.256400
643.933775     128.077000     86.179500     84.076900
649.452775     133.974000     87.076900     85.230800
654.971775     133.615000     86.410300     86.974400
660.490775     130.154000     87.512800     88.641000
666.009775     130.538000     89.487200     90.769200
671.528775     129.949000     88.769200     88.717900
677.047775     131.026000     90.461500     89.153800
682.566775     131.436000     90.589700     91.743600
688.085775     131.179000     88.538500     91.948700
693.604775     129.410000     86.871800     91.179500
699.123775     130.667000     89.179500     91.179500
704.642775     126.821000     89.307700     90.000000
710.161775     124.051000     86.461500     88.025600
715.680775     128.590000     89.025600     90.589700
721.199775     128.769000     89.820500     90.871800
726.718775     127.231000     90.410300     89.512800
732.237775     126.000000     91.743600     87.794900
737.756775     127.590000     91.846200     86.871800
743.275775     130.718000     91.948700     89.948700
748.794775     128.359000     88.743600     92.564100
754.313775     127.538000     88.743600     95.615400
759.832775     127.231000     89.538500     95.307700
765.351775     128.308000     89.435900     91.384600
770.870775     125.897000     87.820500     87.717900
776.389775     127.436000     88.794900     89.282100
781.908775     129.282000     90.282100     93.051300
787.427775     130.385000     90.512800     94.487200
792.946775     126.872000     87.538500     92.051300
798.465775     125.077000     87.948700     91.461500
803.984775     122.308000     88.205100     89.435900
809.503775     118.487000     86.128200     87.564100
815.022775     120.359000     85.410300     83.923100
820.541775     124.923000     86.948700     83.769200
826.060775     131.333000     91.846200     86.794900
831.579775     128.103000     90.051300     87.487200
837.098775     124.462000     87.846200     89.051300
842.617775     123.821000     86.000000     90.384600
848.136775     126.077000     84.512800     89.794900
853.655775     128.410000     83.282100     88.846200
859.174775     127.821000     83.589700     87.230800
864.693775     130.128000     84.410300     87.589700
870.212775     130.385000     85.435900     89.461500
875.731775     130.590000     85.666700     88.179500
881.250775     126.795000     85.564100     87.307700
886.769775     122.538000     87.641000     88.359000
892.288775     118.513000     87.846200     88.000000
897.807775     115.974000     86.051300     88.076900
903.326775     115.385000     85.743600     89.564100
908.845775     118.513000     87.153800     91.666700
914.364775     120.308000     87.948700     91.128200
919.883775     121.590000     88.820500     90.000000
925.402775     119.692000     86.666700     88.461500
930.921775     121.154000     87.948700     90.589700
936.440775     120.974000     88.589700     91.538500
941.959775     123.949000     89.307700     93.794900
947.478775     120.923000     87.564100     93.871800
952.997775     115.821000     85.871800     92.333300
958.516775     115.308000     85.000000     90.538500
964.035775     117.487000     84.717900     88.717900
969.554775     118.462000     82.820500     86.794900
975.073775     125.410000     87.717900     92.230800
980.592775     126.051000     88.974400     93.179500
986.111775     125.385000     88.230800     93.846200
991.630775     122.359000     87.974400     94.205100
997.149775     124.641000     88.461500     95.256400
1002.668775     124.026000     85.769200     94.179500
1008.187775     126.487000     86.794900     91.820500
1013.706775     127.359000     89.025600     89.307700
1019.225775     126.923000     90.333300     87.871800
1024.744775     124.513000     89.769200     83.846200
1030.263775     122.590000     87.102600     81.512800
1035.782775     124.692000     87.179500     83.923100
1041.301775     128.436000     87.948700     86.717900
1046.820775     127.641000     88.282100     87.102600
1052.339775     126.692000     88.769200     86.384600
1057.858775     126.769000     89.589700     89.512800
1063.377775     124.385000     90.256400     91.051300
1068.896775     123.821000     90.589700     93.051300
1074.415775     122.077000     87.974400     89.179500
1079.934775     122.923000     87.384600     87.923100
1085.453775     128.282000     88.384600     88.076900
1090.972775     130.821000     85.384600     86.897400
1096.491775     136.333000     89.359000     89.461500
1102.010775     134.846000     89.923100     89.948700
1107.529775     132.744000     89.410300     89.743600
1113.048775     129.436000     88.846200     89.384600
1118.567775     124.923000     87.333300     87.461500
1124.086775     122.487000     86.820500     87.538500
1129.605775     126.590000     88.923100     88.666700
1135.124775     129.462000     89.076900     87.230800
1140.643775     130.179000     88.846200     87.051300
1146.162775     128.513000     89.948700     87.153800
1151.681775     128.564000     90.051300     88.589700
1157.200775     128.590000     88.769200     88.333300
1162.719775     130.077000     89.153800     88.102600
1168.238775     130.359000     89.102600     86.641000
1173.757775     132.385000     89.461500     89.051300
1179.276775     131.590000     88.948700     89.282100
1184.795775     132.487000     90.282100     91.153800
1190.314775     127.795000     87.051300     91.102600
1195.833775     121.615000     84.435900     89.384600
1201.352775     118.231000     85.923100     89.256400
1206.871775     120.359000     89.179500     92.076900
1212.390775     121.769000     89.487200     94.564100
1217.909775     123.667000     90.871800     94.359000
1223.428775     125.359000     92.282100     92.051300
1228.947775     123.359000     88.615400     86.076900
1234.466775     127.179000     90.794900     87.948700
1239.985775     132.744000     93.820500     93.025600
1245.504775     128.590000     90.333300     93.000000
1251.023775     124.872000     86.564100     89.230800
1256.542775     125.513000     87.000000     88.128200
1262.061775     129.821000     89.410300     90.564100
1267.580775     128.667000     89.435900     92.769200
1273.099775     127.487000     88.948700     93.153800
1278.618775     127.744000     89.692300     93.974400
1284.137775     125.949000     88.384600     90.974400
1289.656775     123.538000     84.923100     88.410300
1295.175775     122.564000     84.871800     88.435900
1300.694775     124.949000     86.410300     87.871800
1306.213775     131.231000     90.282100     89.589700
1311.732775     132.205000     90.333300     87.564100
1317.251775     133.333000     90.025600     84.794900
1322.770775     131.051000     89.153800     85.692300
1328.289775     129.769000     86.025600     83.307700
1333.808775     127.615000     83.538500     81.974400
1339.327775     128.692000     84.615400     85.025600
1344.846775     128.179000     86.179500     87.641000
1350.365775     123.282000     85.410300     87.000000
1355.884775     122.513000     86.025600     87.179500
1361.403775     124.846000     87.846200     86.794900
1366.922775     125.436000     87.641000     82.846200
1372.441775     129.051000     87.512800     81.333300
1377.960775     129.333000     88.666700     80.974400
1383.479775     125.769000     86.051300     80.794900
1388.998775     124.462000     86.128200     83.897400
1394.517775     124.795000     88.615400     86.000000
1400.036775     124.231000     89.435900     85.538500
1405.555775     126.718000     89.102600     84.384600
1411.074775     131.051000     88.846200     85.359000
1416.593775     132.667000     89.871800     86.897400
1422.112775     127.487000     87.179500     85.102600
1427.631775     125.103000     85.717900     84.641000
1433.150775     129.128000     86.743600     87.205100
1438.669775     133.692000     90.256400     89.051300
1444.188775     132.795000     90.230800     88.820500
1449.707775     129.154000     88.461500     87.589700
1455.226775     127.385000     88.564100     88.307700
1460.745775     124.974000     86.384600     85.359000
1466.264775     127.000000     86.871800     85.820500
1471.783775     131.205000     89.179500     89.205100
1477.302775     131.051000     88.615400     87.846200
1482.821775     129.564000     88.461500     86.487200
1488.340775     131.487000     88.025600     85.820500
1493.859775     132.308000     87.179500     85.256400
1499.378775     130.974000     86.359000     85.564100
1504.897775     131.179000     88.974400     86.205100
1510.416775     129.205000     89.025600     85.025600
1515.935775     126.410000     86.794900     86.051300
1521.454775     126.872000     86.948700     88.000000
1526.973775     128.026000     87.359000     88.743600
1532.492775     126.410000     89.410300     91.538500
1538.011775     127.256000     91.256400     92.461500
1543.530775     124.923000     87.615400     89.512800
1549.049775     125.282000     86.564100     85.769200
1554.568775     124.718000     86.230800     85.666700
1560.087775     125.077000     89.794900     90.897400
1565.606775     121.744000     90.102600     91.282100
1571.125775     119.641000     91.512800     88.769200
1576.644775     119.103000     89.256400     86.794900
1582.163775     118.846000     89.282100     88.256400
1587.682775     118.256000     89.717900     89.897400
1593.201775     120.923000     89.794900     89.846200
1598.720775     124.744000     91.923100     91.846200
1604.239775     124.436000     91.461500     90.512800
1609.758775     119.154000     87.615400     84.076900
1615.277775     122.308000     88.794900     85.897400
1620.796775     127.692000     89.769200     88.589700
1626.315775     126.718000     87.692300     87.179500
1631.834775     126.385000     89.333300     85.820500
1637.353775     131.385000     92.717900     86.538500
1642.872775     129.436000     93.128200     85.717900
1648.391775     126.462000     92.717900     85.769200
1653.910775     122.795000     91.794900     86.871800
1659.429775     123.949000     91.538500     87.307700
1664.948775     124.974000     89.897400     87.051300
1670.467775     127.590000     88.743600     88.769200
1675.986775     126.103000     87.333300     91.000000
1681.505775     122.615000     88.076900     93.589700
1687.024775     116.256000     85.948700     92.102600
1692.543775     115.795000     86.256400     88.974400
1698.062775     120.256000     89.666700     88.282100
1703.581775     124.308000     90.794900     89.179500
1709.100775     129.051000     91.717900     93.615400
1714.619775     125.410000     89.487200     93.871800
1720.138775     117.538000     84.948700     89.512800
1725.657775     120.179000     87.487200     89.307700
1731.176775     120.410000     87.923100     88.384600
1736.695775     121.487000     87.615400     88.666700
1742.214775     121.436000     86.564100     88.666700
1747.733775     123.949000     87.717900     90.025600
1753.252775     125.872000     88.564100     87.948700
1758.771775     129.615000     90.538500     88.871800
1764.290775     130.615000     91.359000     90.820500
1769.809775     126.769000     89.974400     90.769200
1775.328775     121.795000     87.717900     89.282100
1780.847775     119.590000     88.717900     88.589700
1786.366775     121.359000     90.641000     89.410300
1791.885775     122.410000     90.461500     86.307700
1797.404775     122.821000     89.333300     83.076900
1802.923775     128.718000     88.487200     83.692300
1808.442775     131.718000     86.717900     83.769200
1813.961775     137.410000     90.333300     88.974400
1819.480775     136.718000     90.025600     87.897400
1824.999775     134.538000     87.666700     82.794900
1830.518775     132.385000     85.820500     79.256400
1836.037775     133.154000     86.487200     80.897400
1841.556775     130.333000     84.307700     83.128200
1847.075775     128.282000     83.589700     86.743600
1852.594775     126.769000     87.564100     90.256400
1858.113775     125.026000     87.871800     89.846200
1863.632775     122.513000     88.333300     89.743600
1869.151775     122.923000     87.615400     91.282100
1874.670775     126.128000     88.025600     92.820500
1880.189775     127.718000     87.641000     90.948700
1885.708775     122.923000     86.589700     88.205100
1891.227775     118.026000     86.923100     88.487200
1896.746775     115.795000     88.076900     91.615400
1902.265775     120.615000     89.871800     97.410300
1907.784775     121.154000     86.461500     95.923100
1913.303775     122.410000     85.769200     91.538500
1918.822775     130.077000     90.384600     91.512800
1924.341775     135.359000     93.102600     90.820500
1929.860775     131.308000     90.923100     88.205100
1935.379775     127.795000     90.512800     90.384600
1940.898775     125.744000     89.128200     91.974400
1946.417775     126.282000     87.230800     89.435900
1951.936775     125.231000     88.359000     88.102600
1957.455775     124.103000     90.384600     86.076900
1962.974775     122.128000     90.641000     85.948700
1968.493775     120.897000     89.384600     86.564100
1974.012775     123.410000     90.871800     89.974400
1979.531775     124.795000     90.051300     90.743600
1985.050775     125.641000     89.025600     92.717900
1990.569775     129.590000     89.974400     95.256400
1996.088775     134.667000     91.769200     96.256400
2001.607775     133.436000     91.820500     93.153800
2007.126775     127.487000     90.282100     89.794900
2012.645775     125.641000     91.153800     90.102600
2018.164775     126.308000     92.256400     89.461500
2023.683775     125.026000     91.076900     87.923100
2029.202775     125.026000     90.410300     87.743600
2034.721775     126.256000     89.282100     87.461500
2040.240775     126.231000     87.282100     85.205100
2045.759775     127.231000     90.794900     86.435900
2051.278775     128.026000     89.743600     88.076900
2056.797775     128.513000     90.128200     90.205100
2062.316775     125.795000     88.384600     90.487200
2067.835775     123.897000     88.769200     90.564100
2073.354775     126.385000     92.102600     95.128200
2078.873775     130.513000     94.025600     96.461500
2084.392775     133.231000     94.666700     96.435900
2089.911775     126.513000     89.205100     89.846200
2095.430775     123.821000     87.307700     89.205100
2100.949775     125.051000     88.359000     89.846200
2106.468775     126.231000     89.359000     90.102600
2111.987775     127.564000     90.794900     91.435900
2117.506775     125.949000     90.692300     91.871800
2123.025775     121.949000     90.589700     89.153800
2128.544775     117.359000     89.641000     85.846200
2134.063775     113.744000     89.641000     87.153800
2139.582775     110.051000     87.179500     86.384600
2145.101775     118.231000     90.794900     91.846200
2150.620775     121.538000     91.871800     91.333300
2156.139775     121.949000     89.512800     88.461500
2161.658775     120.154000     90.076900     88.076900
2167.177775     124.667000     90.794900     92.589700
2172.696775     126.051000     88.820500     93.820500
2178.215775     126.667000     88.435900     92.384600
2183.734775     126.256000     87.564100     89.743600
2189.253775     128.205000     91.307700     91.000000
2194.772775     125.718000     90.282100     90.359000
2200.291775     127.513000     90.871800     90.743600
2205.810775     127.436000     90.051300     89.820500
2211.329775     125.231000     87.846200     85.897400
2216.848775     123.590000     83.307700     83.846200
2222.367775     127.718000     83.743600     86.974400
2227.886775     134.462000     89.230800     92.333300
2233.405775     135.231000     89.333300     90.179500
2238.924775     131.897000     88.666700     88.615400
2244.443775     132.179000     90.282100     92.000000
2249.962775     129.026000     87.487200     90.025600
2255.481775     132.359000     86.538500     88.820500
2261.000775     135.590000     88.538500     90.461500
2266.519775     136.513000     88.794900     90.333300
2272.038775     135.462000     89.000000     91.179500
2277.557775     134.949000     90.846200     91.076900
2283.076775     132.308000     91.205100     90.179500
2288.595775     130.000000     90.076900     89.743600
2294.114775     128.128000     87.666700     90.794900
2299.633775     127.821000     86.333300     90.282100
2305.152775     129.256000     87.256400     90.692300
2310.671775     125.462000     86.461500     91.538500
2316.190775     127.923000     91.000000     96.051300
2321.709775     126.128000     90.846200     94.307700
2327.228775     124.744000     88.820500     92.102600
2332.747775     125.667000     89.897400     91.948700
2338.266775     123.872000     89.051300     90.410300
2343.785775     121.974000     88.641000     90.871800
2349.304775     122.718000     89.487200     92.820500
2354.823775     124.308000     88.948700     92.512800
2360.342775     125.949000     89.179500     90.948700
2365.861775     128.846000     88.820500     91.487200
2371.380775     130.205000     88.256400     91.435900
2376.899775     127.487000     86.410300     90.025600
2382.418775     126.256000     88.025600     91.256400
2387.937775     129.538000     90.282100     93.000000
2393.456775     126.846000     88.051300     90.743600
2398.975775     132.026000     87.564100     90.692300
2404.494775     130.282000     85.025600     89.512800
2410.013775     132.462000     87.230800     88.897400
2415.532775     132.026000     88.333300     88.564100
2421.051775     132.282000     90.051300     89.666700
2426.570775     130.590000     90.205100     91.025600
2432.089775     132.462000     92.692300     94.512800
2437.608775     130.923000     91.205100     93.102600
2443.127775     129.154000     90.230800     90.846200
2448.646775     122.718000     88.051300     86.871800
2454.165775     119.128000     87.923100     85.256400
2459.684775     119.641000     88.692300     85.282100
2465.203775     124.513000     90.102600     89.205100
2470.722775     125.718000     89.333300     90.435900
2476.241775     123.333000     87.974400     89.461500
2481.760775     122.821000     88.128200     89.769200
2487.279775     121.949000     88.307700     89.974400
2492.798775     122.846000     87.846200     90.128200
2498.317775     121.462000     88.615400     92.615400
2503.836775     122.385000     86.256400     92.153800
2509.355775     124.564000     85.564100     90.359000
2514.874775     129.256000     88.538500     94.000000
2520.393775     130.436000     89.205100     93.128200
2525.912775     131.205000     90.564100     94.871800
2531.431775     126.487000     89.974400     93.282100
2536.950775     122.795000     88.128200     89.179500
2542.469775     124.333000     87.487200     87.205100
2547.988775     129.103000     91.179500     93.256400
2553.507775     131.487000     92.871800     96.128200
2559.026775     127.897000     88.974400     92.051300
2564.545775     130.333000     90.102600     94.025600
2570.064775     126.769000     88.948700     91.923100
2575.583775     124.821000     87.102600     91.589700
2581.102775     121.256000     84.538500     89.692300
2586.621775     122.692000     84.846200     88.359000
2592.140775     123.615000     84.512800     86.410300
2597.659775     125.333000     85.410300     87.897400
2603.178775     126.000000     86.076900     89.179500
2608.697775     124.821000     84.564100     86.076900
2614.216775     124.744000     83.512800     84.641000
2619.735775     124.718000     86.794900     85.974400
2625.254775     123.974000     88.641000     86.102600
2630.773775     124.154000     88.461500     83.846200
2636.292775     126.974000     88.384600     85.102600
2641.811775     128.333000     88.359000     86.359000
2647.330775     128.051000     88.307700     89.307700
2652.849775     127.974000     88.435900     92.051300
2658.368775     125.615000     88.025600     92.435900
2663.887775     123.077000     85.615400     88.794900
2669.406775     120.897000     85.717900     86.589700
2674.925775     120.128000     87.923100     88.282100
2680.444775     121.026000     88.717900     90.256400
2685.963775     124.949000     91.512800     92.512800
2691.482775     124.641000     91.153800     89.717900
2697.001775     124.564000     91.384600     88.923100
2702.520775     126.051000     90.282100     89.333300
2708.039775     127.359000     92.794900     93.230800
2713.558775     128.231000     94.282100     96.153800
2719.077775     123.692000     89.410300     93.256400
2724.596775     123.872000     87.359000     92.615400
2730.115775     126.897000     88.025600     93.769200
2735.634775     126.923000     87.769200     92.359000
2741.153775     124.256000     88.384600     91.589700
2746.672775     124.410000     90.410300     93.461500
2752.191775     124.077000     89.410300     91.820500
2757.710775     123.154000     87.692300     88.359000
2763.229775     126.154000     89.282100     88.615400
2768.748775     128.974000     88.974400     86.333300
2774.267775     129.513000     88.794900     84.974400
2779.786775     128.872000     88.051300     86.102600
2785.305775     129.256000     87.820500     86.743600
2790.824775     129.564000     86.871800     87.000000
2796.343775     132.282000     86.230800     87.102600
2801.862775     135.179000     86.230800     86.461500
2807.381775     135.436000     87.564100     87.897400
2812.900775     129.154000     85.692300     86.538500
2818.419775     128.872000     87.128200     88.205100
2823.938775     126.821000     87.871800     90.769200
2829.457775     124.513000     88.487200     93.743600
2834.976775     121.795000     87.333300     91.461500
2840.495775     124.795000     89.615400     91.000000
2846.014775     127.769000     89.692300     89.538500
2851.533775     131.385000     90.282100     90.153800
2857.052775     131.590000     90.179500     90.435900
2862.571775     128.744000     88.820500     91.615400
2868.090775     129.590000     91.666700     93.974400
2873.609775     128.385000     92.000000     93.230800
2879.128775     127.846000     93.794900     93.512800
2884.647775     125.051000     92.641000     91.025600
2890.166775     125.821000     91.846200     91.076900
2895.685775     123.051000     87.512800     88.897400
2901.204775     122.795000     89.205100     88.717900
2906.723775     123.462000     91.717900     90.179500
2912.242775     124.949000     91.769200     92.487200
2917.761775     121.692000     90.435900     94.948700
2923.280775     119.205000     87.179500     95.179500
2928.799775     121.333000     88.179500     94.743600
2934.318775     123.513000     88.717900     93.000000
2939.837775     126.000000     88.717900     92.717900
2945.356775     125.692000     87.666700     92.000000
2950.875775     125.205000     89.000000     92.589700
2956.394775     124.308000     89.102600     92.128200
2961.913775     122.564000     88.846200     92.948700
2967.432775     123.077000     89.487200     95.282100
2972.951775     126.308000     89.333300     94.948700
2978.470775     128.359000     87.794900     95.153800
2983.989775     132.769000     90.666700     94.846200
2989.508775     127.667000     88.923100     91.769200
2995.027775     125.718000     90.974400     90.717900
3000.546775     122.692000     90.871800     90.512800
3006.065775     122.282000     89.897400     89.564100
3011.584775     122.615000     87.641000     87.461500
3017.103775     123.308000     87.000000     87.205100
3022.622775     124.205000     89.820500     87.974400
3028.141775     125.846000     91.333300     89.461500
3033.660775     125.821000     88.974400     86.435900
3039.179775     132.897000     91.512800     92.179500
3044.698775     135.615000     88.692300     95.435900
3050.217775     134.692000     89.307700     98.897400
3055.736775     128.256000     89.205100     96.051300
3061.255775     122.436000     87.461500     90.000000
3066.774775     122.821000     87.923100     86.923100
3072.293775     127.615000     90.948700     88.871800
3077.812775     129.692000     90.923100     89.948700
3083.331775     127.641000     90.871800     88.769200
3088.850775     126.564000     90.589700     86.743600
3094.369775     128.308000     91.333300     87.948700
3099.888775     127.564000     90.461500     87.512800
3105.407775     125.282000     89.179500     85.589700
3110.926775     126.436000     91.846200     87.205100
3116.445775     126.282000     91.179500     86.512800
3121.964775     127.026000     91.871800     87.282100
3127.483775     130.462000     93.282100     91.666700
3133.002775     129.410000     92.820500     93.692300
3138.521775     128.897000     90.974400     94.923100
3144.040775     131.026000     92.359000     95.871800
3149.559775     128.231000     91.666700     94.820500
3155.078775     125.282000     89.153800     93.871800
3160.597775     126.256000     88.435900     92.589700
3166.116775     126.205000     87.384600     91.256400
3171.635775     125.744000     88.205100     91.487200
3177.154775     127.205000     89.333300     92.769200
3182.673775     126.692000     89.307700     92.461500
3188.192775     120.667000     87.359000     90.410300
3193.711775     120.410000     89.717900     92.051300
3199.230775     123.923000     93.871800     94.871800
3204.749775     125.795000     93.179500     94.564100
3210.268775     123.949000     89.820500     91.974400
3215.787775     120.872000     88.230800     90.384600
3221.306775     115.615000     87.230800     90.666700
3226.825775     117.308000     87.435900     94.487200
3232.344775     121.436000     89.179500     98.871800
3237.863775     123.154000     89.871800     97.333300
3243.382775     121.795000     88.384600     94.051300
3248.901775     120.641000     86.435900     88.692300
3254.420775     123.256000     86.871800     85.153800
3259.939775     130.333000     91.179500     86.333300
3265.458775     132.231000     92.538500     89.615400
3270.977775     129.872000     91.615400     89.974400
3276.496775     124.949000     88.717900     85.666700
3282.015775     116.051000     84.948700     83.205100
3287.534775     117.821000     86.333300     85.769200
3293.053775     121.000000     85.512800     87.384600
3298.572775     121.897000     85.717900     89.820500
3304.091775     126.308000     88.794900     95.487200
3309.610775     126.795000     88.410300     95.666700
3315.129775     124.897000     86.205100     89.615400
3320.648775     122.128000     86.230800     86.000000
3326.167775     123.487000     88.102600     86.000000
3331.686775     120.667000     87.717900     87.846200
3337.205775     124.308000     90.487200     91.205100
3342.724775     122.667000     90.153800     91.794900
3348.243775     118.513000     85.820500     87.974400
3353.762775     115.872000     85.230800     89.230800
3359.281775     117.590000     89.615400     92.230800
3364.800775     114.897000     88.282100     91.359000
3370.319775     116.410000     87.512800     93.076900
3375.838775     117.256000     86.153800     94.076900
3381.357775     119.795000     86.641000     96.102600
3386.876775     121.641000     86.384600     97.230800
3392.395775     123.667000     87.230800     97.000000
3397.914775     126.872000     87.794900     96.897400
3403.433775     130.051000     89.666700     97.128200
3408.952775     129.590000     85.743600     91.205100
3414.471775     132.667000     87.615400     92.717900
3419.990775     135.641000     87.230800     93.205100
3425.509775     136.897000     88.333300     93.820500
3431.028775     138.513000     89.128200     93.512800
3436.547775     136.333000     88.538500     91.307700
3442.066775     132.821000     88.846200     88.564100
3447.585775     130.410000     89.820500     88.179500
3453.104775     129.513000     92.000000     90.205100
3458.623775     129.282000     89.897400     87.205100
3464.142775     130.051000     88.076900     86.333300
3469.661775     132.128000     90.384600     87.410300
3475.180775     130.974000     90.435900     89.871800
3480.699775     127.974000     87.769200     90.487200
3486.218775     125.436000     86.153800     93.076900
3491.737775     129.538000     87.923100     94.769200
3497.256775     127.667000     85.564100     91.871800
3502.775775     128.590000     85.846200     88.282100
3508.294775     134.205000     90.692300     91.487200
3513.813775     132.436000     91.230800     91.410300
3519.332775     125.846000     90.205100     89.897400
3524.851775     119.128000     87.179500     89.025600
3530.370775     120.744000     88.435900     95.051300
3535.889775     126.641000     91.051300     101.538000
3541.408775     123.718000     88.487200     98.769200
3546.927775     120.128000     86.179500     94.589700
3552.446775     119.641000     89.128200     95.692300
3557.965775     123.436000     93.282100     97.410300
3563.484775     118.564000     89.205100     93.538500
3569.003775     117.513000     86.666700     90.769200
3574.522775     122.231000     91.589700     95.205100
3580.041775     123.410000     93.282100     95.179500
3585.560775     122.462000     92.307700     95.820500
3591.079775     118.538000     89.025600     93.487200
3596.598775     122.256000     88.025600     92.128200
3602.117775     129.462000     91.410300     91.615400
3607.636775     127.359000     88.205100     88.076900
3613.155775     129.103000     90.256400     91.025600
3618.674775     127.128000     90.000000     93.051300
3624.193775     124.154000     89.179500     94.025600
3629.712775     120.897000     88.897400     92.948700
3635.231775     119.410000     89.410300     93.102600
3640.750775     114.359000     86.256400     89.717900
3646.269775     117.436000     86.461500     89.589700
3651.788775     123.256000     88.359000     93.282100
3657.307775     128.308000     89.359000     97.230800
3662.826775     127.385000     87.435900     98.410300
3668.345775     128.385000     88.333300     98.641000
3673.864775     125.718000     88.179500     97.717900
3679.383775     125.000000     89.564100     99.153800
3684.902775     123.359000     89.461500     100.103000
3690.421775     122.077000     87.538500     98.666700
3695.940775     120.000000     86.564100     95.974400
3701.459775     124.359000     88.025600     96.871800
3706.978775     123.974000     85.974400     96.435900
3712.497775     121.949000     85.051300     94.384600
3718.016775     124.436000     88.025600     98.538500
3723.535775     125.128000     87.923100     99.333300
3729.054775     123.513000     86.846200     95.974400
3734.573775     122.667000     89.897400     93.307700
3740.092775     123.308000     92.666700     92.512800
3745.611775     122.667000     91.359000     89.512800
3751.130775     126.513000     92.461500     92.051300
3756.649775     128.641000     91.461500     93.282100
3762.168775     129.795000     90.435900     96.974400
3767.687775     132.205000     90.871800     100.615000
3773.206775     130.205000     88.589700     101.436000
3778.725775     128.718000     88.359000     99.923100
3784.244775     127.821000     88.512800     96.589700
3789.763775     127.179000     88.282100     96.410300
3795.282775     127.026000     89.487200     96.589700
3800.801775     127.949000     91.564100     99.794900
3806.320775     123.974000     90.256400     99.282100
3811.839775     122.308000     88.359000     95.179500
3817.358775     121.744000     86.846200     93.794900
3822.877775     124.000000     86.230800     92.102600
3828.396775     123.974000     85.794900     90.948700
3833.915775     125.744000     88.743600     94.641000
3839.434775     119.667000     87.666700     93.153800
3844.953775     117.154000     87.974400     94.461500
3850.472775     119.974000     90.179500     96.641000
3855.991775     121.769000     88.871800     95.923100
3861.510775     125.923000     87.820500     95.102600
3867.029775     126.179000     85.410300     93.538500
3872.548775     126.333000     85.230800     94.333300
3878.067775     127.051000     88.333300     96.923100
3883.586775     123.897000     88.923100     97.051300
3889.105775     121.179000     87.871800     93.230800
3894.624775     125.333000     91.538500     95.615400
3900.143775     126.462000     91.897400     97.435900
3905.662775     123.333000     90.230800     98.487200
3911.181775     125.359000     90.538500     100.513000
3916.700775     125.641000     87.384600     100.179000
3922.219775     129.000000     87.666700     100.385000
3927.738775     130.769000     90.871800     100.718000
3933.257775     132.026000     90.589700     100.974000
3938.776775     129.231000     89.589700     101.308000
3944.295775     129.256000     88.820500     100.821000
3949.814775     130.744000     89.051300     101.923000
3955.333775     134.359000     91.435900     105.692000
3960.852775     131.179000     91.615400     110.282000
3966.371775     124.564000     89.974400     113.538000
3971.890775     120.231000     89.102600     116.590000
3977.409775     123.821000     89.512800     119.667000
3982.928775     128.205000     89.461500     124.667000
3988.447775     132.487000     90.615400     132.205000
3993.966775     136.641000     92.871800     144.385000
3999.485775     139.744000     95.410300     160.590000
4005.004775     142.872000     98.179500     179.667000
4010.523775     146.000000     99.435900     199.974000
4016.042775     150.846000     100.795000     218.897000
4021.561775     154.154000     101.282000     235.487000
4027.080775     154.410000     101.564000     250.667000
4032.599775     153.103000     101.538000     262.615000
4038.118775     152.077000     100.821000     273.179000
4043.637775     153.410000     102.872000     285.795000
4049.156775     151.949000     103.718000     291.000000
4054.675775     148.436000     103.128000     294.974000
4060.194775     146.410000     104.590000     302.205000
4065.713775     147.308000     105.128000     311.026000
4071.232775     146.487000     105.462000     314.026000
4076.751775     141.974000     102.615000     312.872000
4082.270775     139.538000     103.692000     313.359000
4087.789775     137.487000     103.949000     313.154000
4093.308775     133.692000     100.026000     312.769000
4098.827775     138.000000     101.564000     320.692000
4104.346775     142.154000     103.615000     336.308000
4109.865775     146.077000     105.128000     365.256000
4115.384775     147.513000     107.462000     408.718000
4120.903775     151.000000     114.462000     472.359000
4126.422775     159.000000     121.949000     553.513000
4131.941775     170.026000     127.897000     652.923000
4137.460775     178.821000     135.538000     765.949000
4142.979775     189.410000     146.487000     901.410000
4148.498775     198.974000     157.564000     1063.560000
4154.017775     213.692000     173.667000     1248.950000
4159.536775     218.615000     185.487000     1432.150000
4165.055775     230.590000     207.051000     1641.920000
4170.574775     238.179000     221.564000     1862.790000
4176.093775     257.538000     247.308000     2112.310000
4181.612775     263.949000     259.692000     2373.230000
4187.131775     271.282000     274.872000     2638.900000
4192.650775     275.744000     291.308000     2929.180000
4198.169775     285.256000     315.974000     3210.330000
4203.688775     281.949000     320.641000     3474.380000
4209.207775     294.026000     339.128000     3750.000000
4214.726775     292.487000     348.641000     3984.260000
4220.245775     303.103000     364.154000     4209.920000
4225.764775     299.744000     376.436000     4421.460000
4231.283775     300.487000     378.641000     4588.720000
4236.802775     294.179000     379.282000     4731.410000
4242.321775     293.410000     386.795000     4850.150000
4247.840775     283.282000     380.923000     4973.490000
4253.359775     286.103000     392.231000     5080.080000
4258.878775     278.718000     382.692000     5165.080000
4264.397775     281.667000     392.436000     5222.590000
4269.916775     276.103000     395.974000     5279.560000
4275.435775     279.154000     399.179000     5309.590000
4280.954775     276.462000     392.564000     5324.640000
4286.473775     277.282000     399.615000     5318.310000
4291.992775     267.769000     393.949000     5305.620000
4297.511775     261.897000     399.103000     5277.820000
4303.030775     241.359000     383.385000     5228.180000
4308.549775     243.744000     384.718000     5165.540000
4314.068775     234.487000     380.359000     5019.360000
4319.587775     233.385000     379.179000     4868.050000
4325.106775     218.487000     359.564000     4663.850000
4330.625775     220.308000     354.590000     4439.080000
4336.144775     195.564000     332.769000     4235.850000
4341.663775     196.846000     335.974000     4104.970000
4347.182775     191.231000     330.564000     4092.130000
4352.701775     202.051000     355.103000     4216.790000
4358.220775     207.692000     372.487000     4424.130000
4363.739775     220.769000     405.641000     4728.050000
4369.258775     231.128000     435.051000     5061.620000
4374.777775     251.590000     479.333000     5383.380000
4380.296775     234.103000     483.051000     5620.490000
4385.815775     240.462000     500.667000     5861.310000
4391.334775     233.154000     515.231000     6004.150000
4396.853775     229.077000     519.744000     6089.490000
4402.372775     230.000000     539.205000     6226.310000
4407.891775     233.103000     555.846000     6344.770000
4413.410775     225.359000     567.923000     6447.620000
4418.929775     229.615000     586.667000     6548.490000
4424.448775     226.154000     587.231000     6637.490000
4429.967775     245.308000     615.333000     6730.080000
4435.486775     240.769000     617.744000     6797.690000
4441.005775     247.564000     632.487000     6883.080000
4446.524775     231.154000     625.513000     6920.330000
4452.043775     233.692000     637.897000     6954.030000
4457.562775     228.077000     630.692000     6960.410000
4463.081775     244.692000     646.692000     6999.490000
4468.600775     238.538000     647.103000     7034.950000
4474.119775     243.513000     660.000000     7098.540000
4479.638775     244.872000     659.487000     7147.690000
4485.157775     250.051000     670.385000     7200.410000
4490.676775     245.179000     661.154000     7240.180000
4496.195775     252.949000     674.615000     7289.850000
4501.714775     251.513000     675.436000     7338.870000
4507.233775     250.769000     686.641000     7381.560000
4512.752775     241.641000     674.359000     7413.310000
4518.271775     248.795000     681.462000     7432.510000
4523.790775     250.436000     663.795000     7430.740000
4529.309775     244.205000     673.180000     7432.920000
4534.828775     244.718000     660.615000     7432.670000
4540.347775     244.974000     675.359000     7454.850000
4545.866775     238.538000     668.308000     7434.820000
4551.385775     239.333000     679.385000     7416.870000
4556.904775     235.821000     673.718000     7404.720000
4562.423775     235.282000     684.026000     7422.720000
4567.942775     229.154000     681.256000     7443.850000
4573.461775     242.949000     702.282000     7475.440000
4578.980775     244.410000     715.077000     7480.690000
4584.499775     246.949000     734.333000     7512.720000
4590.018775     240.051000     733.923000     7509.720000
4595.537775     249.385000     766.872000     7537.970000
4601.056775     245.538000     781.487000     7554.900000
4606.575775     262.538000     817.718000     7582.560000
4612.094775     247.718000     834.615000     7572.770000
4617.613775     258.103000     877.256000     7597.720000
4623.132775     248.949000     888.487000     7596.460000
4628.651775     250.410000     933.795000     7615.820000
4634.170775     257.410000     966.846000     7613.690000
4639.689775     277.564000     1026.540000     7621.870000
4645.208775     272.974000     1056.100000     7611.030000
4650.727775     269.205000     1098.230000     7592.790000
4656.246775     274.256000     1141.640000     7573.720000
4661.765775     279.974000     1192.460000     7568.490000
4667.284775     269.179000     1228.440000     7549.900000
4672.803775     288.385000     1295.210000     7533.790000
4678.322775     291.231000     1362.540000     7520.310000
4683.841775     291.769000     1412.640000     7504.360000
4689.360775     292.897000     1467.670000     7458.460000
4694.879775     307.513000     1541.970000     7436.000000
4700.398775     305.179000     1609.210000     7406.970000
4705.917775     305.103000     1654.620000     7376.180000
4711.436775     304.436000     1723.050000     7362.210000
4716.955775     321.949000     1804.540000     7344.640000
4722.474775     319.667000     1871.590000     7324.850000
4727.993775     335.949000     1954.150000     7309.850000
4733.512775     347.641000     2025.050000     7290.770000
4739.031775     344.821000     2098.950000     7250.510000
4744.550775     355.462000     2171.740000     7220.440000
4750.069775     361.795000     2247.540000     7190.740000
4755.588775     365.692000     2319.360000     7146.380000
4761.107775     383.154000     2399.950000     7092.820000
4766.626775     374.795000     2463.360000     7039.690000
4772.145775     384.308000     2532.690000     6982.440000
4777.664775     389.359000     2595.540000     6915.150000
4783.183775     412.538000     2653.740000     6805.180000
4788.702775     407.949000     2687.900000     6740.150000
4794.221775     422.410000     2750.510000     6705.540000
4799.740775     417.513000     2776.490000     6633.330000
4805.259775     442.564000     2828.050000     6553.670000
4810.778775     435.436000     2847.590000     6438.640000
4816.297775     442.231000     2861.560000     6320.490000
4821.816775     436.641000     2853.950000     6159.720000
4827.335775     441.256000     2824.670000     5979.850000
4832.854775     430.000000     2766.460000     5745.150000
4838.373775     429.282000     2686.820000     5483.050000
4843.892775     406.590000     2577.080000     5167.360000
4849.411775     389.641000     2457.690000     4842.540000
4854.930775     365.949000     2356.670000     4564.740000
4860.449775     363.538000     2307.850000     4366.900000
4865.968775     360.487000     2318.560000     4290.440000
4871.487775     389.026000     2398.230000     4333.770000
4877.006775     403.333000     2499.080000     4426.440000
4882.525775     435.795000     2658.150000     4580.150000
4888.044775     451.000000     2819.050000     4746.360000
4893.563775     483.513000     2970.900000     4884.180000
4899.082775     485.897000     3080.360000     5005.490000
4904.601775     501.897000     3187.620000     5099.560000
4910.120775     492.128000     3266.790000     5121.490000
4915.639775     512.077000     3323.380000     5137.670000
4921.158775     516.231000     3393.900000     5116.820000
4926.677775     522.077000     3449.740000     5117.640000
4932.196775     530.692000     3504.640000     5082.740000
4937.715775     548.769000     3561.510000     5053.180000
4943.234775     546.974000     3594.490000     5005.850000
4948.753775     549.820000     3635.000000     4968.950000
4954.272775     548.949000     3686.740000     4930.440000
4959.791775     569.974000     3734.870000     4882.360000
4965.310775     560.410000     3755.560000     4802.670000
4970.829775     571.462000     3785.590000     4732.900000
4976.348775     587.872000     3823.100000     4663.230000
4981.867775     604.359000     3841.920000     4579.210000
4987.386775     597.641000     3856.000000     4493.640000
4992.905775     607.744000     3876.920000     4408.210000
4998.424775     613.769000     3882.620000     4315.210000
5003.943775     617.487000     3880.030000     4217.180000
5009.462775     610.154000     3875.230000     4116.870000
5014.981775     627.974000     3881.790000     4027.330000
5020.500775     635.513000     3896.590000     3960.790000
5026.019775     652.667000     3913.970000     3887.820000
5031.538775     655.795000     3927.970000     3820.950000
5037.057775     676.051000     3944.740000     3755.740000
5042.576775     687.744000     3963.330000     3705.080000
5048.095775     705.000000     3985.330000     3654.900000
5053.614775     705.795000     4018.180000     3601.260000
5059.133775     709.462000     4031.000000     3535.030000
5064.652775     725.974000     4061.540000     3480.380000
5070.171775     749.795000     4096.670000     3427.410000
5075.690775     756.051000     4111.130000     3357.790000
5081.209775     758.923000     4118.210000     3282.460000
5086.728775     765.180000     4144.440000     3210.770000
5092.247775     783.795000     4172.770000     3142.130000
5097.766775     809.205000     4217.670000     3098.540000
5103.285775     821.692000     4223.100000     3025.210000
5108.804775     838.051000     4221.050000     2949.620000
5114.323775     846.949000     4230.080000     2881.080000
5119.842775     860.205000     4242.050000     2814.920000
5125.361775     868.974000     4247.380000     2742.150000
5130.880775     875.974000     4233.150000     2657.230000
5136.399775     880.718000     4234.850000     2582.360000
5141.918775     903.974000     4239.330000     2517.180000
5147.437775     913.564000     4235.740000     2454.870000
5152.956775     917.308000     4226.770000     2381.950000
5158.475775     917.000000     4216.000000     2308.560000
5163.994775     925.103000     4210.360000     2240.720000
5169.513775     943.103000     4219.920000     2181.900000
5175.032775     952.949000     4228.870000     2118.900000
5180.551775     951.615000     4248.510000     2062.260000
5186.070775     970.538000     4228.100000     2014.690000
5191.589775     980.974000     4241.310000     1963.150000
5197.108775     978.154000     4237.900000     1901.210000
5202.627775     993.077000     4286.030000     1867.640000
5208.146775     999.615000     4276.670000     1814.670000
5213.665775     999.256000     4280.670000     1765.870000
5219.184775     991.103000     4273.330000     1707.970000
5224.703775     986.333000     4280.820000     1666.410000
5230.222775     994.103000     4276.130000     1630.050000
5235.741775     992.897000     4277.030000     1594.030000
5241.260775     1006.130000     4251.820000     1544.230000
5246.779775     1002.540000     4246.030000     1505.560000
5252.298775     1009.850000     4205.560000     1468.360000
5257.817775     1002.900000     4163.820000     1431.410000
5263.336775     1003.050000     4126.540000     1388.410000
5268.855775     992.462000     4089.490000     1336.950000
5274.374775     1004.670000     4065.620000     1315.180000
5279.893775     1009.130000     4073.080000     1284.790000
5285.412775     1009.900000     4037.000000     1253.360000
5290.931775     1015.000000     4043.490000     1229.850000
5296.450775     1023.230000     4023.440000     1212.410000
5301.969775     1016.310000     4016.000000     1178.230000
5307.488775     1012.310000     3983.130000     1141.950000
5313.007775     1007.850000     3946.640000     1103.080000
5318.526775     1017.560000     3927.540000     1077.820000
5324.045775     1026.310000     3924.000000     1072.180000
5329.564775     1036.410000     3918.720000     1058.360000
5335.083775     1042.260000     3908.640000     1043.360000
5340.602775     1063.210000     3911.280000     1035.460000
5346.121775     1078.030000     3911.280000     1014.050000
5351.640775     1095.640000     3892.150000     998.872000
5357.159775     1102.770000     3875.720000     970.744000
5362.678775     1125.870000     3861.260000     961.487000
5368.197775     1154.540000     3855.330000     951.282000
5373.716775     1163.440000     3824.360000     931.308000
5379.235775     1169.920000     3785.330000     909.872000
5384.754775     1179.150000     3744.490000     888.564000
5390.273775     1195.310000     3714.280000     876.949000
5395.792775     1213.670000     3687.510000     858.615000
5401.311775     1234.230000     3670.770000     845.077000
5406.830775     1256.330000     3646.380000     837.641000
5412.349775     1274.490000     3619.490000     831.564000
5417.868775     1296.260000     3598.720000     815.333000
5423.387775     1317.080000     3573.210000     799.769000
5428.906775     1344.180000     3554.180000     788.744000
5434.425775     1372.440000     3539.410000     775.487000
5439.944775     1395.490000     3524.590000     760.154000
5445.463775     1415.360000     3514.720000     751.538000
5450.982775     1440.690000     3494.100000     732.846000
5456.501775     1471.310000     3469.560000     725.615000
5462.020775     1513.380000     3476.640000     716.949000
5467.539775     1528.440000     3443.670000     694.795000
5473.058775     1548.180000     3451.460000     683.846000
5478.577775     1560.050000     3440.460000     678.205000
5484.096775     1573.640000     3438.560000     670.128000
5489.615775     1588.100000     3419.970000     666.308000
5495.134775     1607.260000     3412.310000     647.205000
5500.653775     1635.410000     3399.920000     641.513000
5506.172775     1665.510000     3387.150000     626.615000
5511.691775     1689.080000     3376.410000     619.513000
5517.210775     1698.440000     3345.920000     602.154000
5522.729775     1714.330000     3313.490000     592.308000
5528.248775     1739.030000     3304.260000     585.256000
5533.767775     1749.180000     3262.740000     577.282000
5539.286775     1764.900000     3231.720000     556.923000
5544.805775     1781.560000     3192.080000     541.359000
5550.324775     1816.490000     3174.050000     529.256000
5555.843775     1840.560000     3147.590000     525.615000
5561.362775     1833.130000     3100.180000     505.179000
5566.881775     1833.540000     3058.460000     492.333000
5572.400775     1839.130000     3029.820000     480.462000
5577.919775     1863.330000     2992.720000     478.897000
5583.438775     1885.280000     2976.260000     468.231000
5588.957775     1902.790000     2953.280000     466.359000
5594.476775     1900.950000     2919.540000     460.256000
5599.995775     1904.080000     2896.590000     456.897000
5605.514775     1918.920000     2866.820000     444.769000
5611.033775     1933.790000     2834.460000     441.487000
5616.552775     1947.490000     2808.280000     427.359000
5622.071775     1965.050000     2778.360000     422.462000
5627.590775     1980.740000     2755.900000     413.641000
5633.109775     1988.560000     2714.360000     407.538000
5638.628775     1987.440000     2673.970000     404.769000
5644.147775     2004.920000     2636.620000     401.026000
5649.666775     2023.720000     2611.970000     396.487000
5655.185775     2031.410000     2565.690000     388.692000
5660.704775     2042.920000     2521.950000     375.897000
5666.223775     2075.620000     2492.770000     378.359000
5671.742775     2090.720000     2456.870000     372.487000
5677.261775     2105.310000     2415.790000     373.949000
5682.780775     2131.590000     2376.640000     368.590000
5688.299775     2161.310000     2333.850000     367.205000
5693.818775     2200.850000     2302.690000     363.974000
5699.337775     2247.820000     2273.230000     359.205000
5704.856775     2289.050000     2235.740000     347.538000
5710.375775     2340.460000     2198.950000     342.538000
5715.894775     2371.670000     2166.790000     338.872000
5721.413775     2430.130000     2142.560000     333.103000
5726.932775     2476.740000     2126.490000     334.359000
5732.451775     2524.230000     2106.540000     335.205000
5737.970775     2571.380000     2078.180000     329.282000
5743.489775     2625.740000     2041.870000     319.667000
5749.008775     2682.000000     2020.970000     322.564000
5754.527775     2731.230000     1998.690000     316.026000
5760.046775     2808.790000     1980.360000     322.667000
5765.565775     2881.870000     1963.050000     320.897000
5771.084775     2942.410000     1937.410000     318.769000
5776.603775     3002.490000     1916.180000     315.538000
5782.122775     3060.260000     1904.100000     321.410000
5787.641775     3104.720000     1867.740000     316.923000
5793.160775     3153.150000     1845.850000     310.026000
5798.679775     3222.820000     1817.360000     309.128000
5804.198775     3291.210000     1805.920000     314.846000
5809.717775     3343.560000     1784.380000     303.103000
5815.236775     3398.180000     1776.640000     303.769000
5820.755775     3442.870000     1755.720000     303.538000
5826.274775     3491.310000     1728.540000     303.692000
5831.793775     3546.030000     1700.510000     304.821000
5837.312775     3572.790000     1685.080000     303.923000
5842.831775     3580.490000     1645.560000     289.923000
5848.350775     3620.180000     1627.410000     305.564000
5853.869775     3649.690000     1598.510000     307.821000
5859.388775     3660.360000     1571.050000     305.744000
5864.907775     3667.640000     1539.130000     301.333000
5870.426775     3672.720000     1507.820000     298.231000
5875.945775     3683.970000     1465.460000     286.231000
5881.464775     3681.490000     1444.080000     282.564000
5886.983775     3677.100000     1410.330000     272.718000
5892.502775     3676.640000     1385.540000     274.615000
5898.021775     3671.030000     1348.620000     269.897000
5903.540775     3677.440000     1324.130000     266.513000
5909.059775     3674.330000     1296.560000     268.000000
5914.578775     3684.560000     1274.950000     265.462000
5920.097775     3674.950000     1249.790000     262.795000
5925.616775     3654.790000     1219.900000     259.974000
5931.135775     3629.950000     1193.280000     253.179000
5936.654775     3616.410000     1167.280000     256.051000
5942.173775     3595.590000     1133.230000     248.487000
5947.692775     3572.440000     1107.180000     250.282000
5953.211775     3563.410000     1077.560000     248.718000
5958.730775     3542.330000     1052.180000     248.462000
5964.249775     3522.030000     1023.870000     242.179000
5969.768775     3506.740000     1002.180000     242.744000
5975.287775     3477.280000     969.641000     236.513000
5980.806775     3463.820000     950.077000     240.462000
5986.325775     3425.820000     915.820000     232.026000
5991.844775     3382.590000     889.436000     228.641000
5997.363775     3352.000000     864.051000     228.256000
6002.882775     3329.720000     843.000000     227.000000
6008.401775     3304.410000     811.590000     217.744000
6013.920775     3273.080000     785.000000     214.538000
6019.439775     3233.920000     756.026000     209.615000
6024.958775     3194.380000     728.180000     203.846000
6030.477775     3160.790000     705.564000     200.974000
6035.996775     3134.970000     688.000000     198.128000
6041.515775     3109.100000     664.180000     191.641000
6047.034775     3081.360000     651.538000     197.667000
6052.553775     3036.280000     625.974000     188.154000
6058.072775     3001.900000     603.667000     183.051000
6063.591775     2973.850000     583.487000     184.282000
6069.110775     2954.490000     572.820000     185.974000
6074.629775     2927.230000     556.051000     182.718000
6080.148775     2900.280000     541.333000     186.462000
6085.667775     2867.360000     524.154000     184.436000
6091.186775     2829.720000     501.667000     178.846000
6096.705775     2786.900000     482.231000     170.205000
6102.224775     2743.050000     468.282000     166.718000
6107.743775     2716.080000     450.692000     165.641000
6113.262775     2700.510000     437.872000     166.026000
6118.781775     2672.870000     419.436000     159.103000
6124.300775     2642.000000     411.538000     160.333000
6129.819775     2620.080000     400.154000     157.744000
6135.338775     2602.490000     397.000000     164.872000
6140.857775     2583.380000     383.513000     158.949000
6146.376775     2543.540000     366.769000     155.974000
6151.895775     2507.510000     351.974000     150.692000
6157.414775     2488.130000     346.333000     151.846000
6162.933775     2482.560000     342.795000     155.872000
6168.452775     2468.820000     339.179000     156.256000
6173.971775     2437.130000     326.000000     150.641000
6179.490775     2406.460000     321.462000     152.795000
6185.009775     2378.230000     312.667000     152.026000
6190.528775     2364.740000     302.513000     151.282000
6196.047775     2337.770000     292.718000     150.769000
6201.566775     2304.670000     292.436000     148.872000
6207.085775     2273.080000     281.769000     146.077000
6212.604775     2241.900000     274.487000     143.154000
6218.123775     2214.050000     268.436000     141.718000
6223.642775     2196.210000     268.872000     144.077000
6229.161775     2167.950000     263.872000     150.231000
6234.680775     2145.790000     258.667000     147.846000
6240.199775     2124.210000     256.231000     152.359000
6245.718775     2099.410000     250.744000     148.410000
6251.237775     2063.850000     245.795000     144.769000
6256.756775     2029.410000     241.128000     140.590000
6262.275775     2008.540000     236.641000     140.718000
6267.794775     1993.150000     236.026000     143.205000
6273.313775     1969.850000     233.256000     147.436000
6278.832775     1936.230000     228.641000     142.718000
6284.351775     1903.560000     218.692000     139.359000
6289.870775     1887.050000     217.179000     137.692000
6295.389775     1869.460000     219.590000     139.410000
6300.908775     1837.740000     215.333000     134.923000
6306.427775     1805.870000     209.821000     131.308000
6311.946775     1795.080000     211.077000     133.231000
6317.465775     1772.790000     211.282000     136.769000
6322.984775     1758.000000     209.205000     135.077000
6328.503775     1755.720000     204.923000     131.718000
6334.022775     1733.540000     201.000000     131.051000
6339.541775     1702.590000     195.718000     127.179000
6345.060775     1684.440000     194.436000     125.256000
6350.579775     1668.360000     194.205000     128.333000
6356.098775     1647.970000     195.769000     132.077000
6361.617775     1623.620000     191.410000     131.846000
6367.136775     1600.900000     188.436000     127.410000
6372.655775     1590.460000     186.179000     129.205000
6378.174775     1582.210000     184.949000     127.923000
6383.693775     1565.100000     178.846000     125.641000
6389.212775     1550.440000     178.615000     127.000000
6394.731775     1531.080000     181.667000     133.231000
6400.250775     1508.870000     177.923000     129.436000
6405.769775     1492.050000     176.000000     129.179000
6411.288775     1473.620000     175.051000     129.205000
6416.807775     1443.230000     167.795000     123.615000
6422.326775     1418.360000     166.205000     126.692000
6427.845775     1399.950000     165.718000     130.615000
6433.364775     1389.690000     165.692000     133.051000
6438.883775     1361.970000     162.410000     129.923000
6444.402775     1330.790000     159.897000     127.667000
6449.921775     1296.620000     158.718000     128.667000
6455.440775     1274.820000     154.692000     126.231000
6460.959775     1250.310000     153.538000     126.923000
6466.478775     1227.080000     153.692000     129.385000
6471.997775     1203.100000     149.846000     127.462000
6477.516775     1181.920000     150.205000     128.154000
6483.035775     1159.260000     150.564000     127.692000
6488.554775     1138.870000     151.436000     127.000000
6494.073775     1116.850000     150.744000     125.333000
6499.592775     1099.180000     147.333000     127.000000
6505.111775     1079.260000     144.154000     128.256000
6510.630775     1063.820000     141.744000     130.923000
6516.149775     1041.210000     137.359000     128.564000
6521.668775     1012.030000     136.487000     124.821000
6527.187775     973.820000     134.077000     119.897000
6532.706775     945.744000     136.590000     122.641000
6538.225775     911.820000     132.205000     121.359000
6543.744775     877.846000     126.513000     119.359000
6549.263775     848.051000     123.333000     118.308000
6554.782775     824.308000     125.821000     118.308000
6560.301775     806.051000     123.692000     114.385000
6565.820775     795.872000     123.103000     114.846000
6571.339775     798.718000     123.256000     118.205000
6576.858775     811.333000     127.179000     124.077000
6582.377775     817.667000     128.000000     126.308000
6587.896775     813.282000     126.462000     123.154000
6593.415775     812.359000     126.103000     120.308000
6598.934775     805.564000     128.846000     121.949000
6604.453775     802.000000     126.923000     120.846000
6609.972775     797.462000     126.923000     121.282000
6615.491775     795.385000     129.513000     125.000000
6621.010775     785.180000     129.436000     126.308000
6626.529775     769.590000     128.308000     126.000000
6632.048775     765.282000     128.282000     128.564000
6637.567775     763.256000     127.769000     125.615000
6643.086775     760.538000     125.974000     118.667000
6648.605775     752.795000     127.308000     117.872000
6654.124775     742.231000     128.256000     119.282000
6659.643775     728.077000     126.513000     120.179000
6665.162775     713.231000     124.462000     120.436000
6670.681775     698.590000     120.436000     116.205000
6676.200775     685.641000     118.795000     112.205000
6681.719775     664.795000     118.513000     110.436000
6687.238775     653.615000     120.359000     113.026000
6692.757775     647.333000     123.744000     116.769000
6698.276775     633.641000     121.256000     113.436000
6703.795775     616.231000     120.077000     111.897000
6709.314775     602.872000     120.974000     113.231000
6714.833775     590.538000     120.256000     110.487000
6720.352775     573.359000     116.564000     108.513000
6725.871775     553.795000     117.974000     111.564000
6731.390775     532.282000     118.000000     112.692000
6736.909775     517.795000     116.974000     111.564000
6742.428775     502.974000     118.513000     110.718000
6747.947775     484.231000     116.282000     105.231000
6753.466775     469.077000     115.205000     104.641000
6758.985775     455.000000     113.513000     103.590000
6764.504775     438.949000     112.154000     104.692000
6770.023775     422.718000     110.564000     106.077000
6775.542775     399.564000     107.513000     104.308000
6781.061775     383.667000     106.667000     104.667000
6786.580775     372.718000     108.103000     106.795000
6792.099775     358.026000     106.487000     105.077000
6797.618775     342.744000     106.487000     102.051000
6803.137775     328.795000     105.949000     101.436000
6808.656775     309.436000     103.795000     99.974400
6814.175775     291.615000     102.462000     100.513000
6819.694775     279.846000     103.641000     103.769000
6825.213775     267.923000     102.974000     103.615000
6830.732775     251.949000     99.538500     102.000000
6836.251775     241.667000     98.384600     101.231000
6841.770775     229.026000     97.025600     98.974400
6847.289775     218.000000     97.794900     98.307700
6852.808775     203.590000     95.564100     96.307700
6858.327775     190.077000     92.025600     95.102600
6863.846775     179.385000     89.384600     94.333300
6869.365775     177.564000     91.051300     98.076900
6874.884775     172.231000     88.717900     94.794900
6880.403775     166.795000     88.564100     90.384600
6885.922775     161.154000     87.025600     87.410300
6891.441775     156.667000     88.333300     88.692300
6896.960775     156.641000     88.974400     93.897400
6902.479775     152.692000     89.000000     94.615400
6907.998775     143.769000     85.102600     89.000000
6913.517775     142.308000     86.230800     85.589700
6919.036775     144.846000     88.871800     85.230800
6924.555775     145.487000     91.333300     87.769200
6930.074775     142.487000     90.025600     89.512800
6935.593775     140.077000     89.076900     92.102600
6941.112775     138.282000     84.897400     90.410300
6946.631775     135.564000     80.769200     88.948700
6952.150775     137.051000     81.923100     91.282100
6957.669775     141.692000     86.897400     95.461500
6963.188775     136.667000     86.564100     93.179500
6968.707775     135.846000     88.435900     92.871800
6974.226775     139.795000     91.615400     97.076900
6979.745775     137.667000     88.974400     93.692300
6985.264775     134.462000     86.359000     89.717900
6990.783775     133.641000     87.948700     90.564100
6996.302775     131.897000     87.410300     92.359000
7001.821775     129.718000     87.871800     94.589700
7007.340775     126.718000     87.743600     93.717900
7012.859775     122.128000     85.589700     91.435900
7018.378775     121.718000     83.794900     90.153800
7023.897775     123.385000     85.435900     92.384600
7029.416775     120.231000     84.384600     92.769200
7034.935775     121.795000     87.076900     93.512800
7040.454775     121.821000     87.410300     91.769200
7045.973775     121.051000     82.666700     85.948700
7051.492775     123.333000     83.230800     85.589700
7057.011775     127.103000     84.820500     86.384600
7062.530775     126.308000     84.974400     88.359000
7068.049775     125.872000     84.307700     89.615400
7073.568775     126.846000     85.410300     90.000000
7079.087775     125.026000     85.282100     89.282100
7084.606775     121.718000     84.128200     86.461500
7090.125775     124.385000     87.487200     89.589700
7095.644775     125.154000     87.000000     92.282100
7101.163775     123.205000     83.974400     89.025600
7106.682775     121.385000     81.230800     88.153800
7112.201775     124.667000     83.512800     89.307700
7117.720775     124.051000     83.307700     90.410300
7123.239775     122.128000     84.333300     92.256400
7128.758775     119.103000     84.435900     91.923100
7134.277775     113.615000     80.974400     86.435900
7139.796775     119.359000     85.025600     90.000000
7145.315775     118.718000     82.871800     89.923100
7150.834775     115.846000     82.025600     89.410300
7156.353775     118.564000     86.205100     91.692300
7161.872775     116.641000     86.051300     92.769200
7167.391775     116.564000     85.820500     94.384600
7172.910775     114.333000     84.717900     95.076900
7178.429775     116.974000     84.589700     92.487200
7183.948775     119.897000     86.692300     92.948700
7189.467775     122.282000     87.384600     93.384600
7194.986775     121.077000     85.487200     92.384600
7200.505775     122.077000     86.974400     94.102600
7206.024775     122.538000     89.487200     93.538500
7211.543775     120.103000     86.948700     88.512800
7217.062775     116.923000     83.000000     86.692300
7222.581775     123.000000     85.615400     89.025600
7228.100775     125.462000     88.025600     90.846200
7233.619775     127.641000     89.025600     92.000000
7239.138775     124.282000     87.282100     90.692300
7244.657775     121.667000     88.512800     90.846200
